study_id: CUR-DEM-001
generated_at: '2025-09-16T03:08:36Z'
summary:
  total: 27
  by_severity:
    MAJOR: 21
    MINOR: 6
  by_domain:
    VS: 18
    AE: 3
    EX: 6
issues:
- domain: VS
  rule_id: VS_TYPES
  severity: MAJOR
  message: VSDTC not a valid datetime
  usubjid: SUBJ-002
  row: 2
  column: VSDTC
  context:
    VSDTC: 14-02-2025
  created_at: '2025-09-16T03:08:36Z'
  qid: 1c8134bf48d55266938f564709b0bb110e3147b824463915252ed83fdd636b11
- domain: VS
  rule_id: VS_TYPES
  severity: MAJOR
  message: VSDTC not a valid datetime
  usubjid: SUBJ-002
  row: 3
  column: VSDTC
  context:
    VSDTC: 14-02-2025
  created_at: '2025-09-16T03:08:36Z'
  qid: 858323b29e95d1cb95155fc7cc160f6ee4ed900e62a54963f52ac7f47bf3180d
- domain: VS
  rule_id: VS_TYPES
  severity: MAJOR
  message: VSDTC not a valid datetime
  usubjid: SUBJ-003
  row: 4
  column: VSDTC
  context:
    VSDTC: 27-03-2025
  created_at: '2025-09-16T03:08:36Z'
  qid: 65740457ef6223c5b28f4096606d4542c017dd09b169dbfa17167d22ea04ab85
- domain: VS
  rule_id: VS_TYPES
  severity: MAJOR
  message: VSDTC not a valid datetime
  usubjid: SUBJ-003
  row: 5
  column: VSDTC
  context:
    VSDTC: 27-03-2025
  created_at: '2025-09-16T03:08:36Z'
  qid: 3239bfe051213afc1c9c22c1591ece99a17e5ab0e58e7d1d4ecd4f4dc6c85628
- domain: VS
  rule_id: VS_TYPES
  severity: MAJOR
  message: VSDTC not a valid datetime
  usubjid: SUBJ-005
  row: 8
  column: VSDTC
  context:
    VSDTC: 22-05-2025
  created_at: '2025-09-16T03:08:36Z'
  qid: d200837ca61c61d4e891c2c320f81d061c65d1906bf1b2d3cead1df001851029
- domain: VS
  rule_id: VS_TYPES
  severity: MAJOR
  message: VSDTC not a valid datetime
  usubjid: SUBJ-005
  row: 9
  column: VSDTC
  context:
    VSDTC: 22-05-2025
  created_at: '2025-09-16T03:08:36Z'
  qid: a292e1ac414af8a4ad5032764e9f74b8aef615b674514e0884c2a20254ab0479
- domain: VS
  rule_id: VS_TYPES
  severity: MAJOR
  message: VSDTC not a valid datetime
  usubjid: SUBJ-007
  row: 12
  column: VSDTC
  context:
    VSDTC: 30-07-2025
  created_at: '2025-09-16T03:08:36Z'
  qid: 55005d2b309d194cb83dd068870c277decc34fe0786d8001abacfe25bb824147
- domain: VS
  rule_id: VS_TYPES
  severity: MAJOR
  message: VSDTC not a valid datetime
  usubjid: SUBJ-007
  row: 13
  column: VSDTC
  context:
    VSDTC: 30-07-2025
  created_at: '2025-09-16T03:08:36Z'
  qid: 157acc01fed584e3a33ad6445b2150ca46f2e9a777efa1b8faa405fd3abd8d04
- domain: VS
  rule_id: VS_TYPES
  severity: MAJOR
  message: VSDTC not a valid datetime
  usubjid: SUBJ-008
  row: 14
  column: VSDTC
  context:
    VSDTC: 15-08-2025
  created_at: '2025-09-16T03:08:36Z'
  qid: 8b70ab51ae91ad5060577cb2ba72a4e550ea0a8c55f34fb4d807f6f0e68cb427
- domain: VS
  rule_id: VS_TYPES
  severity: MAJOR
  message: VSDTC not a valid datetime
  usubjid: SUBJ-008
  row: 15
  column: VSDTC
  context:
    VSDTC: 15-08-2025
  created_at: '2025-09-16T03:08:36Z'
  qid: a0506d21fca85b7df6b3d777ed77011a7883629def7263df3f43c051e9a26649
- domain: VS
  rule_id: VS_TYPES
  severity: MAJOR
  message: VSDTC not a valid datetime
  usubjid: SUBJ-010
  row: 18
  column: VSDTC
  context:
    VSDTC: 19-10-2025
  created_at: '2025-09-16T03:08:36Z'
  qid: 10a2cb809759ab0d56b1ecc324a6b7c4a5f6bcd0c5393565c630a9a707b94b48
- domain: VS
  rule_id: VS_TYPES
  severity: MAJOR
  message: VSDTC not a valid datetime
  usubjid: SUBJ-010
  row: 19
  column: VSDTC
  context:
    VSDTC: 19-10-2025
  created_at: '2025-09-16T03:08:36Z'
  qid: a3e770e6cbe1992eae78e9cbefde452ddfefbbf227d44ca82bea9c0ded94f284
- domain: VS
  rule_id: VS_TYPES
  severity: MAJOR
  message: VSDTC not a valid datetime
  usubjid: SUBJ-012
  row: 22
  column: VSDTC
  context:
    VSDTC: 25-11-2025
  created_at: '2025-09-16T03:08:36Z'
  qid: 1bec1b588cc70894750cb8beb7da7525872edf54d81b238d6675c342f949b578
- domain: VS
  rule_id: VS_TYPES
  severity: MAJOR
  message: VSDTC not a valid datetime
  usubjid: SUBJ-012
  row: 23
  column: VSDTC
  context:
    VSDTC: 25-11-2025
  created_at: '2025-09-16T03:08:36Z'
  qid: 7c3d252ba30d5c842e7a4dc6b209e9f9786ab03760b8d49cf756febd35492640
- domain: VS
  rule_id: VS_TYPES
  severity: MAJOR
  message: VSDTC not a valid datetime
  usubjid: SUBJ-014
  row: 26
  column: VSDTC
  context:
    VSDTC: 28-12-2025
  created_at: '2025-09-16T03:08:36Z'
  qid: f879864b48ad3b359e7abfee646f36682515c0dd0a9e02994cb711ae2c9a68ce
- domain: VS
  rule_id: VS_TYPES
  severity: MAJOR
  message: VSDTC not a valid datetime
  usubjid: SUBJ-014
  row: 27
  column: VSDTC
  context:
    VSDTC: 28-12-2025
  created_at: '2025-09-16T03:08:36Z'
  qid: b7ef2b255213cae48e10ece5f1de5eeb35747c3bee75bb50bfd373cdcfdec5f5
- domain: VS
  rule_id: VS_TYPES
  severity: MAJOR
  message: VSDTC not a valid datetime
  usubjid: SUBJ-015
  row: 28
  column: VSDTC
  context:
    VSDTC: 31-12-2025
  created_at: '2025-09-16T03:08:36Z'
  qid: e6fef7d2ea49efcd65a19e3fff114a2266aa67755d3463d593c1a8074d2007fd
- domain: VS
  rule_id: VS_TYPES
  severity: MAJOR
  message: VSDTC not a valid datetime
  usubjid: SUBJ-015
  row: 29
  column: VSDTC
  context:
    VSDTC: 31-12-2025
  created_at: '2025-09-16T03:08:36Z'
  qid: 2d4e84d4fcc5002bf8dd1cb7aaa6c28b9fd25b7675c182bfcb353026ce32dc1b
- domain: AE
  rule_id: AE_GENERIC_CORROBORATION
  severity: MAJOR
  message: AE lacks corroborating measurement in window
  usubjid: SUBJ-002
  row: 1
  column: AESTDTC
  context:
    AEDECOD: HYPERTENSION
    AESTDTC: 14-02-2025
  created_at: '2025-09-16T03:08:36Z'
  qid: 4e37913b7f78f9b30a365b5fac0138565bc80650b585aaceed126ef3340c8b6b
- domain: AE
  rule_id: AE_GENERIC_CORROBORATION
  severity: MAJOR
  message: AE lacks corroborating measurement in window
  usubjid: SUBJ-008
  row: 7
  column: AESTDTC
  context:
    AEDECOD: HYPOTENSION
    AESTDTC: 15-08-2025
  created_at: '2025-09-16T03:08:36Z'
  qid: b342e3d1dc63b236ff1f3fcdacae1386f9bb7e59d4aa47b298f27437a1fe471d
- domain: AE
  rule_id: AE_GENERIC_CORROBORATION
  severity: MAJOR
  message: AE lacks corroborating measurement in window
  usubjid: SUBJ-012
  row: 11
  column: AESTDTC
  context:
    AEDECOD: HYPERTENSION
    AESTDTC: 25-11-2025
  created_at: '2025-09-16T03:08:36Z'
  qid: 86a37f8b348955592b4ddda49f6b0b14a89e9d66e66b1dd4d2f934f3a4296d93
- domain: EX
  rule_id: EX_REQUIRED_VS_WINDOWS
  severity: MINOR
  message: Missing VS on dose day and/or within +window
  usubjid: SUBJ-001
  row: 0
  column: EXDTC
  context:
    EXDTC: 05-01-2025
  created_at: '2025-09-16T03:08:36Z'
  qid: 01f5e8f74415e367ebaa6de5f8c8292b429700dd9687a97b9c345c7079765a3e
- domain: EX
  rule_id: EX_REQUIRED_VS_WINDOWS
  severity: MINOR
  message: Missing VS on dose day and/or within +window
  usubjid: SUBJ-004
  row: 3
  column: EXDTC
  context:
    EXDTC: 09-04-2025
  created_at: '2025-09-16T03:08:36Z'
  qid: 3e2c608568849463ec81ee6739239aeabf600e2d54a347d970fd72d25ac47215
- domain: EX
  rule_id: EX_REQUIRED_VS_WINDOWS
  severity: MINOR
  message: Missing VS on dose day and/or within +window
  usubjid: SUBJ-006
  row: 5
  column: EXDTC
  context:
    EXDTC: 11-06-2025
  created_at: '2025-09-16T03:08:36Z'
  qid: 1538fc86988a63cbcf2ab40220afb90fba1fee331bcc2edee515d6611661368a
- domain: EX
  rule_id: EX_REQUIRED_VS_WINDOWS
  severity: MINOR
  message: Missing VS on dose day and/or within +window
  usubjid: SUBJ-009
  row: 8
  column: EXDTC
  context:
    EXDTC: 02-09-2025
  created_at: '2025-09-16T03:08:36Z'
  qid: f403f5b8f0a412aa0de04fe5951acd133738d1e7ec6c588e096e2c0570881f02
- domain: EX
  rule_id: EX_REQUIRED_VS_WINDOWS
  severity: MINOR
  message: Missing VS on dose day and/or within +window
  usubjid: SUBJ-011
  row: 10
  column: EXDTC
  context:
    EXDTC: 06-11-2025
  created_at: '2025-09-16T03:08:36Z'
  qid: edf521f863e39d0e42f41b271059f4c595eab93c30dd5aea2796dfe88aac8500
- domain: EX
  rule_id: EX_REQUIRED_VS_WINDOWS
  severity: MINOR
  message: Missing VS on dose day and/or within +window
  usubjid: SUBJ-013
  row: 12
  column: EXDTC
  context:
    EXDTC: 12-12-2025
  created_at: '2025-09-16T03:08:36Z'
  qid: 27c16674d44809148c1630fe7a6baaaf48c5b541f335db1838fe5d76ea436998
